{
  "resourceType": "Bundle",
  "type": "collection",
  "entry": [
    {
      "fullUrl": "http://example.org/fhir/Patient/patient-example",
      "resource": {
        "resourceType": "Patient",
        "id": "patient-example",
        "meta": {
          "versionId": "1",
          "lastUpdated": "2025-10-17T10:00:00Z",
          "security": [
            {
              "system": "http://terminology.hl7.org/CodeSystem/v3-Confidentiality",
              "code": "R",
              "display": "restricted"
            }
          ]
        },
        "identifier": [
          {
            "use": "official",
            "type": {
              "coding": [
                {
                  "system": "http://terminology.hl7.org/CodeSystem/v2-0203",
                  "code": "MR",
                  "display": "Medical Record Number"
                }
              ]
            },
            "system": "http://hospital.example.org/mrn",
            "value": "123456789",
            "period": {
              "start": "2020-01-01"
            },
            "assigner": {
              "display": "Example Hospital"
            }
          },
          {
            "use": "secondary",
            "type": {
              "coding": [
                {
                  "system": "http://terminology.hl7.org/CodeSystem/v2-0203",
                  "code": "SS",
                  "display": "Social Security Number"
                }
              ]
            },
            "system": "http://hl7.org/fhir/sid/us-ssn",
            "value": "123-45-6789"
          }
        ],
        "active": true,
        "name": [
          {
            "use": "official",
            "family": "Smith",
            "given": [
              "John",
              "Michael"
            ],
            "prefix": [
              "Mr."
            ]
          }
        ],
        "telecom": [
          {
            "system": "phone",
            "value": "(555) 123-4567",
            "use": "home"
          },
          {
            "system": "email",
            "value": "john.smith@example.com",
            "use": "home"
          }
        ],
        "gender": "male",
        "birthDate": "1970-03-15",
        "address": [
          {
            "use": "home",
            "type": "both",
            "line": [
              "123 Main Street",
              "Apt 4B"
            ],
            "city": "Springfield",
            "state": "IL",
            "postalCode": "62701",
            "country": "US",
            "period": {
              "start": "2015-06-01"
            }
          }
        ],
        "maritalStatus": {
          "coding": [
            {
              "system": "http://terminology.hl7.org/CodeSystem/v3-MaritalStatus",
              "code": "M",
              "display": "Married"
            }
          ]
        },
        "contact": [
          {
            "relationship": [
              {
                "coding": [
                  {
                    "system": "http://terminology.hl7.org/CodeSystem/v2-0131",
                    "code": "C",
                    "display": "Emergency Contact"
                  }
                ]
              }
            ],
            "name": {
              "family": "Smith",
              "given": [
                "Jane"
              ]
            },
            "telecom": [
              {
                "system": "phone",
                "value": "(555) 987-6543",
                "use": "mobile"
              }
            ],
            "address": {
              "use": "home",
              "line": [
                "123 Main Street",
                "Apt 4B"
              ],
              "city": "Springfield",
              "state": "IL",
              "postalCode": "62701",
              "country": "US"
            }
          }
        ],
        "communication": [
          {
            "language": {
              "coding": [
                {
                  "system": "urn:ietf:bcp:47",
                  "code": "en-US",
                  "display": "English (United States)"
                }
              ]
            },
            "preferred": true
          }
        ],
        "generalPractitioner": [
          {
            "reference": "Practitioner/practitioner-example",
            "display": "Dr. Emily Johnson"
          }
        ],
        "managingOrganization": {
          "reference": "Organization/org-example",
          "display": "Example Hospital"
        }
      }
    },
    {
      "fullUrl": "http://example.org/fhir/Observation/observation-glucose",
      "resource": {
        "resourceType": "Observation",
        "id": "observation-glucose",
        "meta": {
          "versionId": "1",
          "lastUpdated": "2025-10-17T09:30:00Z"
        },
        "status": "final",
        "category": [
          {
            "coding": [
              {
                "system": "http://terminology.hl7.org/CodeSystem/observation-category",
                "code": "laboratory",
                "display": "Laboratory"
              }
            ]
          }
        ],
        "code": {
          "coding": [
            {
              "system": "http://loinc.org",
              "code": "15074-8",
              "display": "Glucose [Mass/volume] in Blood"
            }
          ],
          "text": "Fasting Blood Glucose"
        },
        "subject": {
          "reference": "Patient/patient-example",
          "display": "John Michael Smith"
        },
        "encounter": {
          "reference": "Encounter/encounter-example",
          "display": "Annual Physical Exam"
        },
        "effectiveDateTime": "2025-10-17T09:30:00Z",
        "issued": "2025-10-17T10:15:00Z",
        "performer": [
          {
            "reference": "Practitioner/practitioner-example",
            "display": "Dr. Emily Johnson"
          },
          {
            "reference": "Organization/lab-example",
            "display": "Example Clinical Laboratory"
          }
        ],
        "valueQuantity": {
          "value": 95,
          "unit": "mg/dL",
          "system": "http://unitsofmeasure.org",
          "code": "mg/dL"
        },
        "interpretation": [
          {
            "coding": [
              {
                "system": "http://terminology.hl7.org/CodeSystem/v3-ObservationInterpretation",
                "code": "N",
                "display": "Normal"
              }
            ],
            "text": "Normal fasting glucose"
          }
        ],
        "referenceRange": [
          {
            "low": {
              "value": 70,
              "unit": "mg/dL",
              "system": "http://unitsofmeasure.org",
              "code": "mg/dL"
            },
            "high": {
              "value": 100,
              "unit": "mg/dL",
              "system": "http://unitsofmeasure.org",
              "code": "mg/dL"
            },
            "type": {
              "coding": [
                {
                  "system": "http://terminology.hl7.org/CodeSystem/referencerange-meaning",
                  "code": "normal",
                  "display": "Normal Range"
                }
              ]
            }
          }
        ]
      }
    },
    {
      "fullUrl": "http://example.org/fhir/Encounter/encounter-example",
      "resource": {
        "resourceType": "Encounter",
        "id": "encounter-example",
        "meta": {
          "versionId": "1",
          "lastUpdated": "2025-10-17T11:00:00Z"
        },
        "status": "finished",
        "class": {
          "system": "http://terminology.hl7.org/CodeSystem/v3-ActCode",
          "code": "AMB",
          "display": "ambulatory"
        },
        "type": [
          {
            "coding": [
              {
                "system": "http://snomed.info/sct",
                "code": "185349003",
                "display": "Encounter for check up (procedure)"
              }
            ],
            "text": "Annual Physical Examination"
          }
        ],
        "subject": {
          "reference": "Patient/patient-example",
          "display": "John Michael Smith"
        },
        "participant": [
          {
            "type": [
              {
                "coding": [
                  {
                    "system": "http://terminology.hl7.org/CodeSystem/v3-ParticipationType",
                    "code": "PPRF",
                    "display": "primary performer"
                  }
                ]
              }
            ],
            "individual": {
              "reference": "Practitioner/practitioner-example",
              "display": "Dr. Emily Johnson"
            }
          }
        ],
        "period": {
          "start": "2025-10-17T09:00:00Z",
          "end": "2025-10-17T10:30:00Z"
        },
        "reasonCode": [
          {
            "coding": [
              {
                "system": "http://snomed.info/sct",
                "code": "410620009",
                "display": "Well child visit (procedure)"
              }
            ],
            "text": "Routine annual physical examination"
          }
        ],
        "hospitalization": {
          "admitSource": {
            "coding": [
              {
                "system": "http://terminology.hl7.org/CodeSystem/admit-source",
                "code": "outp",
                "display": "From outpatient department"
              }
            ]
          }
        },
        "location": [
          {
            "location": {
              "reference": "Location/location-example",
              "display": "Example Hospital - Outpatient Clinic"
            },
            "status": "completed",
            "period": {
              "start": "2025-10-17T09:00:00Z",
              "end": "2025-10-17T10:30:00Z"
            }
          }
        ],
        "serviceProvider": {
          "reference": "Organization/org-example",
          "display": "Example Hospital"
        }
      }
    },
    {
      "fullUrl": "http://example.org/fhir/Condition/condition-hypertension",
      "resource": {
        "resourceType": "Condition",
        "id": "condition-hypertension",
        "meta": {
          "versionId": "1",
          "lastUpdated": "2025-10-17T10:00:00Z"
        },
        "clinicalStatus": {
          "coding": [
            {
              "system": "http://terminology.hl7.org/CodeSystem/condition-clinical",
              "code": "active",
              "display": "Active"
            }
          ]
        },
        "verificationStatus": {
          "coding": [
            {
              "system": "http://terminology.hl7.org/CodeSystem/condition-ver-status",
              "code": "confirmed",
              "display": "Confirmed"
            }
          ]
        },
        "category": [
          {
            "coding": [
              {
                "system": "http://terminology.hl7.org/CodeSystem/condition-category",
                "code": "encounter-diagnosis",
                "display": "Encounter Diagnosis"
              }
            ]
          }
        ],
        "severity": {
          "coding": [
            {
              "system": "http://snomed.info/sct",
              "code": "371923003",
              "display": "Mild to moderate"
            }
          ]
        },
        "code": {
          "coding": [
            {
              "system": "http://snomed.info/sct",
              "code": "38341003",
              "display": "Hypertensive disorder, systemic arterial (disorder)"
            },
            {
              "system": "http://hl7.org/fhir/sid/icd-10-cm",
              "code": "I10",
              "display": "Essential (primary) hypertension"
            }
          ],
          "text": "Essential Hypertension"
        },
        "subject": {
          "reference": "Patient/patient-example",
          "display": "John Michael Smith"
        },
        "encounter": {
          "reference": "Encounter/encounter-example"
        },
        "onsetDateTime": "2020-05-10",
        "recordedDate": "2020-05-10T14:30:00Z",
        "recorder": {
          "reference": "Practitioner/practitioner-example",
          "display": "Dr. Emily Johnson"
        },
        "asserter": {
          "reference": "Practitioner/practitioner-example",
          "display": "Dr. Emily Johnson"
        },
        "note": [
          {
            "text": "Patient diagnosed with essential hypertension. Currently managed with lifestyle modifications and antihypertensive medication. Blood pressure well-controlled at last visit."
          }
        ]
      }
    },
    {
      "fullUrl": "http://example.org/fhir/MedicationRequest/medication-lisinopril",
      "resource": {
        "resourceType": "MedicationRequest",
        "id": "medication-lisinopril",
        "meta": {
          "versionId": "1",
          "lastUpdated": "2025-10-17T10:30:00Z"
        },
        "status": "active",
        "intent": "order",
        "medicationCodeableConcept": {
          "coding": [
            {
              "system": "http://www.nlm.nih.gov/research/umls/rxnorm",
              "code": "314076",
              "display": "lisinopril 10 MG Oral Tablet"
            }
          ],
          "text": "Lisinopril 10mg Tablet"
        },
        "subject": {
          "reference": "Patient/patient-example",
          "display": "John Michael Smith"
        },
        "encounter": {
          "reference": "Encounter/encounter-example"
        },
        "authoredOn": "2025-10-17T10:30:00Z",
        "requester": {
          "reference": "Practitioner/practitioner-example",
          "display": "Dr. Emily Johnson"
        },
        "reasonReference": [
          {
            "reference": "Condition/condition-hypertension",
            "display": "Essential Hypertension"
          }
        ],
        "dosageInstruction": [
          {
            "sequence": 1,
            "text": "Take 10mg by mouth once daily in the morning",
            "timing": {
              "repeat": {
                "frequency": 1,
                "period": 1,
                "periodUnit": "d",
                "when": [
                  "MORN"
                ]
              }
            },
            "route": {
              "coding": [
                {
                  "system": "http://snomed.info/sct",
                  "code": "26643006",
                  "display": "Oral route"
                }
              ]
            },
            "doseAndRate": [
              {
                "type": {
                  "coding": [
                    {
                      "system": "http://terminology.hl7.org/CodeSystem/dose-rate-type",
                      "code": "ordered",
                      "display": "Ordered"
                    }
                  ]
                },
                "doseQuantity": {
                  "value": 10,
                  "unit": "mg",
                  "system": "http://unitsofmeasure.org",
                  "code": "mg"
                }
              }
            ]
          }
        ],
        "dispenseRequest": {
          "numberOfRepeatsAllowed": 11,
          "quantity": {
            "value": 90,
            "unit": "Tablet",
            "system": "http://terminology.hl7.org/CodeSystem/v3-orderableDrugForm",
            "code": "TAB"
          },
          "expectedSupplyDuration": {
            "value": 90,
            "unit": "days",
            "system": "http://unitsofmeasure.org",
            "code": "d"
          }
        }
      }
    }
  ]
}
