{
  "entry": [
    {
      "fullUrl": "http://example.org/fhir/Patient/patient-example",
      "resource": {
        "active": true,
        "address": [
          {
            "city": "Springfield",
            "country": "US",
            "line": [
              "123 Main Street",
              "Apt 4B"
            ],
            "period": {
              "start": "2015-06-01"
            },
            "postalCode": "62701",
            "state": "IL",
            "type": "both",
            "use": "home"
          }
        ],
        "birthDate": "1970-03-15",
        "communication": [
          {
            "language": {
              "coding": [
                {
                  "code": "en-US",
                  "display": "English (United States)",
                  "system": "urn:ietf:bcp:47"
                }
              ]
            },
            "preferred": true
          }
        ],
        "contact": [
          {
            "address": {
              "city": "Springfield",
              "country": "US",
              "line": [
                "123 Main Street",
                "Apt 4B"
              ],
              "postalCode": "62701",
              "state": "IL",
              "use": "home"
            },
            "name": {
              "family": "Smith",
              "given": [
                "Jane"
              ]
            },
            "relationship": [
              {
                "coding": [
                  {
                    "code": "C",
                    "display": "Emergency Contact",
                    "system": "http://terminology.hl7.org/CodeSystem/v2-0131"
                  }
                ]
              }
            ],
            "telecom": [
              {
                "system": "phone",
                "use": "mobile",
                "value": "(555) 987-6543"
              }
            ]
          }
        ],
        "gender": "male",
        "generalPractitioner": [
          {
            "display": "Dr. Emily Johnson",
            "reference": "Practitioner/practitioner-example"
          }
        ],
        "id": "patient-example",
        "identifier": [
          {
            "assigner": {
              "display": "Example Hospital"
            },
            "period": {
              "start": "2020-01-01"
            },
            "system": "http://hospital.example.org/mrn",
            "type": {
              "coding": [
                {
                  "code": "MR",
                  "display": "Medical Record Number",
                  "system": "http://terminology.hl7.org/CodeSystem/v2-0203"
                }
              ]
            },
            "use": "official",
            "value": "123456789"
          },
          {
            "system": "http://hl7.org/fhir/sid/us-ssn",
            "type": {
              "coding": [
                {
                  "code": "SS",
                  "display": "Social Security Number",
                  "system": "http://terminology.hl7.org/CodeSystem/v2-0203"
                }
              ]
            },
            "use": "secondary",
            "value": "123-45-6789"
          }
        ],
        "managingOrganization": {
          "display": "Example Hospital",
          "reference": "Organization/org-example"
        },
        "maritalStatus": {
          "coding": [
            {
              "code": "M",
              "display": "Married",
              "system": "http://terminology.hl7.org/CodeSystem/v3-MaritalStatus"
            }
          ]
        },
        "meta": {
          "lastUpdated": "2025-10-17T10:00:00Z",
          "security": [
            {
              "code": "R",
              "display": "restricted",
              "system": "http://terminology.hl7.org/CodeSystem/v3-Confidentiality"
            }
          ],
          "versionId": "1"
        },
        "name": [
          {
            "family": "Smith",
            "given": [
              "John",
              "Michael"
            ],
            "prefix": [
              "Mr."
            ],
            "use": "official"
          }
        ],
        "resourceType": "Patient",
        "telecom": [
          {
            "system": "phone",
            "use": "home",
            "value": "(555) 123-4567"
          },
          {
            "system": "email",
            "use": "home",
            "value": "john.smith@example.com"
          }
        ]
      }
    },
    {
      "fullUrl": "http://example.org/fhir/Observation/observation-glucose",
      "resource": {
        "category": [
          {
            "coding": [
              {
                "code": "laboratory",
                "display": "Laboratory",
                "system": "http://terminology.hl7.org/CodeSystem/observation-category"
              }
            ]
          }
        ],
        "code": {
          "coding": [
            {
              "code": "15074-8",
              "display": "Glucose [Mass/volume] in Blood",
              "system": "http://loinc.org"
            }
          ],
          "text": "Fasting Blood Glucose"
        },
        "effectiveDateTime": "2025-10-17T09:30:00Z",
        "encounter": {
          "display": "Annual Physical Exam",
          "reference": "Encounter/encounter-example"
        },
        "id": "observation-glucose",
        "interpretation": [
          {
            "coding": [
              {
                "code": "N",
                "display": "Normal",
                "system": "http://terminology.hl7.org/CodeSystem/v3-ObservationInterpretation"
              }
            ],
            "text": "Normal fasting glucose"
          }
        ],
        "issued": "2025-10-17T10:15:00Z",
        "meta": {
          "lastUpdated": "2025-10-17T09:30:00Z",
          "versionId": "1"
        },
        "performer": [
          {
            "display": "Dr. Emily Johnson",
            "reference": "Practitioner/practitioner-example"
          },
          {
            "display": "Example Clinical Laboratory",
            "reference": "Organization/lab-example"
          }
        ],
        "referenceRange": [
          {
            "high": {
              "code": "mg/dL",
              "system": "http://unitsofmeasure.org",
              "unit": "mg/dL",
              "value": 100
            },
            "low": {
              "code": "mg/dL",
              "system": "http://unitsofmeasure.org",
              "unit": "mg/dL",
              "value": 70
            },
            "type": {
              "coding": [
                {
                  "code": "normal",
                  "display": "Normal Range",
                  "system": "http://terminology.hl7.org/CodeSystem/referencerange-meaning"
                }
              ]
            }
          }
        ],
        "resourceType": "Observation",
        "status": "final",
        "subject": {
          "display": "John Michael Smith",
          "reference": "Patient/patient-example"
        },
        "valueQuantity": {
          "code": "mg/dL",
          "system": "http://unitsofmeasure.org",
          "unit": "mg/dL",
          "value": 95
        }
      }
    },
    {
      "fullUrl": "http://example.org/fhir/Encounter/encounter-example",
      "resource": {
        "class": {
          "code": "AMB",
          "display": "ambulatory",
          "system": "http://terminology.hl7.org/CodeSystem/v3-ActCode"
        },
        "hospitalization": {
          "admitSource": {
            "coding": [
              {
                "code": "outp",
                "display": "From outpatient department",
                "system": "http://terminology.hl7.org/CodeSystem/admit-source"
              }
            ]
          }
        },
        "id": "encounter-example",
        "location": [
          {
            "location": {
              "display": "Example Hospital - Outpatient Clinic",
              "reference": "Location/location-example"
            },
            "period": {
              "end": "2025-10-17T10:30:00Z",
              "start": "2025-10-17T09:00:00Z"
            },
            "status": "completed"
          }
        ],
        "meta": {
          "lastUpdated": "2025-10-17T11:00:00Z",
          "versionId": "1"
        },
        "participant": [
          {
            "individual": {
              "display": "Dr. Emily Johnson",
              "reference": "Practitioner/practitioner-example"
            },
            "type": [
              {
                "coding": [
                  {
                    "code": "PPRF",
                    "display": "primary performer",
                    "system": "http://terminology.hl7.org/CodeSystem/v3-ParticipationType"
                  }
                ]
              }
            ]
          }
        ],
        "period": {
          "end": "2025-10-17T10:30:00Z",
          "start": "2025-10-17T09:00:00Z"
        },
        "reasonCode": [
          {
            "coding": [
              {
                "code": "410620009",
                "display": "Well child visit (procedure)",
                "system": "http://snomed.info/sct"
              }
            ],
            "text": "Routine annual physical examination"
          }
        ],
        "resourceType": "Encounter",
        "serviceProvider": {
          "display": "Example Hospital",
          "reference": "Organization/org-example"
        },
        "status": "finished",
        "subject": {
          "display": "John Michael Smith",
          "reference": "Patient/patient-example"
        },
        "type": [
          {
            "coding": [
              {
                "code": "185349003",
                "display": "Encounter for check up (procedure)",
                "system": "http://snomed.info/sct"
              }
            ],
            "text": "Annual Physical Examination"
          }
        ]
      }
    },
    {
      "fullUrl": "http://example.org/fhir/Condition/condition-hypertension",
      "resource": {
        "asserter": {
          "display": "Dr. Emily Johnson",
          "reference": "Practitioner/practitioner-example"
        },
        "category": [
          {
            "coding": [
              {
                "code": "encounter-diagnosis",
                "display": "Encounter Diagnosis",
                "system": "http://terminology.hl7.org/CodeSystem/condition-category"
              }
            ]
          }
        ],
        "clinicalStatus": {
          "coding": [
            {
              "code": "active",
              "display": "Active",
              "system": "http://terminology.hl7.org/CodeSystem/condition-clinical"
            }
          ]
        },
        "code": {
          "coding": [
            {
              "code": "38341003",
              "display": "Hypertensive disorder, systemic arterial (disorder)",
              "system": "http://snomed.info/sct"
            },
            {
              "code": "I10",
              "display": "Essential (primary) hypertension",
              "system": "http://hl7.org/fhir/sid/icd-10-cm"
            }
          ],
          "text": "Essential Hypertension"
        },
        "encounter": {
          "reference": "Encounter/encounter-example"
        },
        "id": "condition-hypertension",
        "meta": {
          "lastUpdated": "2025-10-17T10:00:00Z",
          "versionId": "1"
        },
        "note": [
          {
            "text": "Patient diagnosed with essential hypertension. Currently managed with lifestyle modifications and antihypertensive medication. Blood pressure well-controlled at last visit."
          }
        ],
        "onsetDateTime": "2020-05-10",
        "recordedDate": "2020-05-10T14:30:00Z",
        "recorder": {
          "display": "Dr. Emily Johnson",
          "reference": "Practitioner/practitioner-example"
        },
        "resourceType": "Condition",
        "severity": {
          "coding": [
            {
              "code": "371923003",
              "display": "Mild to moderate",
              "system": "http://snomed.info/sct"
            }
          ]
        },
        "subject": {
          "display": "John Michael Smith",
          "reference": "Patient/patient-example"
        },
        "verificationStatus": {
          "coding": [
            {
              "code": "confirmed",
              "display": "Confirmed",
              "system": "http://terminology.hl7.org/CodeSystem/condition-ver-status"
            }
          ]
        }
      }
    },
    {
      "fullUrl": "http://example.org/fhir/MedicationRequest/medication-lisinopril",
      "resource": {
        "authoredOn": "2025-10-17T10:30:00Z",
        "dispenseRequest": {
          "expectedSupplyDuration": {
            "code": "d",
            "system": "http://unitsofmeasure.org",
            "unit": "days",
            "value": 90
          },
          "numberOfRepeatsAllowed": 11,
          "quantity": {
            "code": "TAB",
            "system": "http://terminology.hl7.org/CodeSystem/v3-orderableDrugForm",
            "unit": "Tablet",
            "value": 90
          }
        },
        "dosageInstruction": [
          {
            "doseAndRate": [
              {
                "doseQuantity": {
                  "code": "mg",
                  "system": "http://unitsofmeasure.org",
                  "unit": "mg",
                  "value": 10
                },
                "type": {
                  "coding": [
                    {
                      "code": "ordered",
                      "display": "Ordered",
                      "system": "http://terminology.hl7.org/CodeSystem/dose-rate-type"
                    }
                  ]
                }
              }
            ],
            "route": {
              "coding": [
                {
                  "code": "26643006",
                  "display": "Oral route",
                  "system": "http://snomed.info/sct"
                }
              ]
            },
            "sequence": 1,
            "text": "Take 10mg by mouth once daily in the morning",
            "timing": {
              "repeat": {
                "frequency": 1,
                "period": 1,
                "periodUnit": "d",
                "when": [
                  "MORN"
                ]
              }
            }
          }
        ],
        "encounter": {
          "reference": "Encounter/encounter-example"
        },
        "id": "medication-lisinopril",
        "intent": "order",
        "medicationCodeableConcept": {
          "coding": [
            {
              "code": "314076",
              "display": "lisinopril 10 MG Oral Tablet",
              "system": "http://www.nlm.nih.gov/research/umls/rxnorm"
            }
          ],
          "text": "Lisinopril 10mg Tablet"
        },
        "meta": {
          "lastUpdated": "2025-10-17T10:30:00Z",
          "versionId": "1"
        },
        "reasonReference": [
          {
            "display": "Essential Hypertension",
            "reference": "Condition/condition-hypertension"
          }
        ],
        "requester": {
          "display": "Dr. Emily Johnson",
          "reference": "Practitioner/practitioner-example"
        },
        "resourceType": "MedicationRequest",
        "status": "active",
        "subject": {
          "display": "John Michael Smith",
          "reference": "Patient/patient-example"
        }
      }
    }
  ],
  "resourceType": "Bundle",
  "type": "collection"
}
